[Main]
Experiment = "IvsV"
Header length = 32    
Date = "20201029 17:24:20"
Comments = ""

[System]
System = "PPMS"
Magnet stability range (G) = 5.000000E+1
Magnet check interval (s) = 1.000000E+0
Magnet approach mode = "Linear Approach"
Magnet mode = "Persistent"
Temperature stability time (s) = 1.000000E+0
Temperature approach mode = "Fast Settle"

[Dynamic Voltage]
Voltage source = "Keithley 6430"
GPIB = "GPIB0::9::INSTR"
Initial Voltage (V) = -10.000000E+0
Final Voltage (V) = 10.000000E+0
Voltage step (V) = 1.000000E+0
Number of measurement sequences = 1.000000E+0
Samples/sequence = 30.000000E+0
Pre-measuement delay (s) = 1.000000E+0
Current limit (A) = 100.000000E-6
Auto-range = 0
Manual range (V) = 10.000000E+0
Measurement Type = "Static"
Pattern = "Linear"
Check compliance = 0
Measurement Speed = 1.000000
Time (s)	Voltage 1 (V)	Current (A)	STD_Current (A)	Resistance 1 (Ohms)	STD_Resistance 1 (Ohms)
0.000000000E+0	-10.000000000E+0	-2.085202137E-9	1.890061646E-9	4.795698136E+9	4.346899972E+9
8.501521587E+0	-9.000000000E+0	-1.952833190E-9	1.884127531E-9	4.608688569E+9	4.446543134E+9
17.086674690E+0	-8.000000000E+0	-1.811846840E-9	1.950139432E-9	4.415384250E+9	4.752396694E+9
25.886089802E+0	-7.000000000E+0	-1.904878437E-9	2.178118676E-9	3.674775180E+9	4.201893568E+9
34.602056026E+0	-6.000000000E+0	-1.099832147E-9	3.007966068E-9	5.455377912E+9	14.920087304E+9
45.893891335E+0	-5.000000000E+0	-983.384820000E-12	2.910961132E-9	5.084479543E+9	15.050793977E+9
55.625667572E+0	-4.000000000E+0	-724.112410000E-12	2.808129909E-9	5.524004208E+9	21.422256023E+9
67.472102642E+0	-3.000000000E+0	-412.646090000E-12	2.834083511E-9	7.270152493E+9	49.931938778E+9
76.907232285E+0	-2.000000000E+0	165.270898000E-12	3.207726309E-9	-12.101344061E+9	234.873775053E+9
86.454044342E+0	-1.000000000E+0	810.676097667E-12	2.544844441E-9	-1.233538281E+9	3.872277778E+9
99.032950401E+0	0.000000000E+0	-308.366803000E-12	2.283739170E-9	-0.000000000E+0	0.000000000E+0
115.985542774E+0	1.000000000E+0	1.412016067E-9	1.950040828E-9	708.207239002E+6	978.057589777E+6
127.144079208E+0	2.000000000E+0	1.498752987E-9	1.840828167E-9	1.334442712E+9	1.639015738E+9
138.171036243E+0	3.000000000E+0	1.938793583E-9	2.388998268E-9	1.547353997E+9	1.906663014E+9
148.460278034E+0	4.000000000E+0	1.859994997E-9	2.143949222E-9	2.150543419E+9	2.478853921E+9
159.350888252E+0	5.000000000E+0	1.949021580E-9	1.941861937E-9	2.565389758E+9	2.555965915E+9
170.260129929E+0	6.000000000E+0	2.086705463E-9	2.024463537E-9	2.875345901E+9	2.789580531E+9
181.451157570E+0	7.000000000E+0	1.373570467E-9	846.904713965E-12	5.096207417E+9	3.142177405E+9
188.945572853E+0	8.000000000E+0	1.503595200E-9	419.479836211E-12	5.320580965E+9	1.484359907E+9
195.490616798E+0	9.000000000E+0	1.832195433E-9	1.290389839E-9	4.912139740E+9	3.459551908E+9
202.710667610E+0	10.000000000E+0	1.577089567E-9	213.392041724E-12	6.340793961E+9	857.956959482E+6
